word,marker,keybind,thisN,thisTrialN,thisRepN,wordPromptLoop.thisRepN,wordPromptLoop.thisTrialN,wordPromptLoop.thisN,wordPromptLoop.thisIndex,thisRow.t,notes,adjustment.started,text.started,adjustment.stopped,shortFixation.started,fixationCross_2.started,shortFixation.stopped,wordDisplay.started,wordDisplayText.started,wordDisplay.stopped,fixation.started,fixationCross.started,fixation.stopped,rest.started,placeholder_image.started,rest.stopped,wordDisplayText.stopped,fixationCross.stopped,participant,session,date,expName,psychopyVersion,frameRate,expStart,
,,,,,,,,,,,,0.0034248000010848045,0.013300300110131502,10.005010700086132,,,,,,,,,,,,,,,118346,001,2025-03-17_16h18.47.532,data_collection,2024.2.4,59.135836172544,2025-03-17 16h18.55.103640 +0100,
I,1,a,0,0,0,0,0,0,0,10.023691999958828,,,,,10.01231319992803,10.023691999958828,12.00616310001351,12.011507699964568,12.021038000006229,16.003890000050887,16.003926299978048,16.0166585999541,52.00794759998098,52.008029399905354,52.060346599901095,60.018184300046414,,,118346,001,2025-03-17_16h18.47.532,data_collection,2024.2.4,59.135836172544,2025-03-17 16h18.55.103640 +0100,
More,2,b,1,1,0,0,1,1,1,60.0348811999429,,,,,60.018396799918264,60.0348811999429,62.016707099974155,62.0241296000313,62.029970600036904,66.01248300005682,66.01252530002967,66.02528630010784,102.01264930004254,102.01268679997884,102.02914860006422,110.00610710005276,,,118346,001,2025-03-17_16h18.47.532,data_collection,2024.2.4,59.135836172544,2025-03-17 16h18.55.103640 +0100,
What,3,c,2,2,0,0,2,2,2,110.02254480007105,,,,,110.00627869996242,110.02254480007105,112.00767789990641,112.01542069995776,112.02489829994738,116.00143439997919,116.00147260003723,116.02082809992135,152.00492629990913,152.00499080005102,152.02133910008706,160.01796060008928,,,118346,001,2025-03-17_16h18.47.532,data_collection,2024.2.4,59.135836172544,2025-03-17 16h18.55.103640 +0100,
Who,4,d,3,3,0,0,3,3,3,160.03154899994843,,,,,160.01813050010242,160.03154899994843,162.01330130011775,162.01935410010628,162.0298361000605,166.01012929994613,166.0101685000118,166.0267876998987,202.0165758000221,202.0166104999371,202.03314379998483,210.00728900008835,,,118346,001,2025-03-17_16h18.47.532,data_collection,2024.2.4,59.135836172544,2025-03-17 16h18.55.103640 +0100,
Help,5,e,4,4,0,0,4,4,4,210.02728680009022,,,,,210.00743829994462,210.02728680009022,212.00873690005392,212.01403580000624,212.0220733000897,216.00227200007066,216.00232150009833,216.01920079998672,252.00654070009477,252.0065816999413,252.02284980006516,260.01892699999735,,,118346,001,2025-03-17_16h18.47.532,data_collection,2024.2.4,59.135836172544,2025-03-17 16h18.55.103640 +0100,
You,6,f,5,5,0,0,5,5,5,260.0330270000268,,,,,260.0190946001094,260.0330270000268,262.00206220010296,262.0062722999137,262.0147190000862,265.9990964999888,265.9991347999312,266.0115549999755,301.9988019000739,301.9988424999174,302.0147565000225,310.0084112000186,266.0115549999755,302.0147565000225,118346,001,2025-03-17_16h18.47.532,data_collection,2024.2.4,59.135836172544,2025-03-17 16h18.55.103640 +0100,
Want,7,g,6,6,0,0,6,6,6,310.0249880000483,,,,,310.0085903001018,310.0249880000483,312.0068491001148,312.011000999948,312.02358689997345,316.00670729996637,316.006746100029,316.02004370000213,352.0099240001291,352.00996010005474,352.02372850012034,360.0006027999334,,,118346,001,2025-03-17_16h18.47.532,data_collection,2024.2.4,59.135836172544,2025-03-17 16h18.55.103640 +0100,
When,8,h,7,7,0,0,7,7,7,360.01760750007816,,,,,360.00075610005297,360.01760750007816,362.0021867000032,362.0072886000853,362.01574890012853,366.012664699927,366.012727299938,366.02897670003586,402.0160431000404,402.0160749000497,402.03539029997773,410.00971319992095,,,118346,001,2025-03-17_16h18.47.532,data_collection,2024.2.4,59.135836172544,2025-03-17 16h18.55.103640 +0100,
On,9,i,8,8,0,0,8,8,8,410.02636360004544,,,,,410.0099430999253,410.02636360004544,412.00783280003816,412.01286039990373,412.0245952999685,416.00457160011865,416.0046097000595,416.0212820000015,452.00835180003196,452.0083979999181,452.0276828999631,460.0018835000228,,,118346,001,2025-03-17_16h18.47.532,data_collection,2024.2.4,59.135836172544,2025-03-17 16h18.55.103640 +0100,
Stop,10,j,9,9,0,0,9,9,9,460.0184516001027,,,,,460.0020488000009,460.0184516001027,462.00289399991743,462.0098659999203,462.0167835999746,466.00031040003523,466.0003426000476,466.0135973999277,502.00070370011963,502.0007398999296,502.0172594001051,510.01072070002556,466.0135973999277,,118346,001,2025-03-17_16h18.47.532,data_collection,2024.2.4,59.135836172544,2025-03-17 16h18.55.103640 +0100,
Yes,11,k,10,10,0,0,10,10,10,510.02826489997096,,,,,510.01088829990476,510.02826489997096,512.0090463000815,512.0147176000755,512.0256902999245,516.00866209995,516.0086986001115,516.0224989000708,552.0126404999755,552.0126773999073,552.0260948000941,560.0030398999806,,,118346,001,2025-03-17_16h18.47.532,data_collection,2024.2.4,59.135836172544,2025-03-17 16h18.55.103640 +0100,
Do,12,l,11,11,0,0,11,11,11,560.0195997999981,,,,,560.0033144000918,560.0195997999981,562.0047995999921,562.0098486000206,562.0179381999187,566.0010168999434,566.0010506999679,566.0146669999231,602.0048436999787,602.0048869999591,602.0189668000676,610.0147891000379,,,118346,001,2025-03-17_16h18.47.532,data_collection,2024.2.4,59.135836172544,2025-03-17 16h18.55.103640 +0100,
Where,13,m,12,12,0,0,12,12,12,610.0285412000958,,,,,610.0149789999705,610.0285412000958,612.0101640000939,612.0162565000355,612.0280593999196,616.0069957999513,616.0070551999379,616.0255283000879,652.0137458001263,652.0137871000916,652.0275043000001,660.0070023001172,,,118346,001,2025-03-17_16h18.47.532,data_collection,2024.2.4,59.135836172544,2025-03-17 16h18.55.103640 +0100,
In,14,n,13,13,0,0,13,13,13,660.0207293001004,,,,,660.0071723000146,660.0207293001004,662.0027089999057,662.0072842999361,662.019021099899,666.016146000009,666.0161818000488,666.0351394000463,702.0029074000195,702.0029438999481,702.0194337998983,710.0136371001136,,,118346,001,2025-03-17_16h18.47.532,data_collection,2024.2.4,59.135836172544,2025-03-17 16h18.55.103640 +0100,
Give,15,o,14,14,0,0,14,14,14,710.0323731000535,,,,,710.013802899979,710.0323731000535,712.0115606000181,712.0170923001133,712.0323652999941,716.0081148999743,716.0081486001145,716.0250234999694,752.0117860001046,752.0118257000577,752.031149999937,760.0052895999979,,,118346,001,2025-03-17_16h18.47.532,data_collection,2024.2.4,59.135836172544,2025-03-17 16h18.55.103640 +0100,
No,16,p,15,15,0,0,15,15,15,760.0224848000798,,,,,760.0054554999806,760.0224848000798,762.0065866999794,762.1306096999906,762.1347272000276,766.0170905999839,766.0171252998989,766.0361641999334,802.0047720000148,802.0048181999009,802.0234968999866,810.0141753999051,,,118346,001,2025-03-17_16h18.47.532,data_collection,2024.2.4,59.135836172544,2025-03-17 16h18.55.103640 +0100,
Put,17,q,16,16,0,0,16,16,16,810.0307656000368,,,,,810.0143820000812,810.0307656000368,812.0125883999281,812.0187309000175,812.0291913000401,816.0096658000257,816.0097318000626,816.0257657000329,852.0130253001116,852.0130612999201,852.0331127999816,860.0063732000999,,,118346,001,2025-03-17_16h18.47.532,data_collection,2024.2.4,59.135836172544,2025-03-17 16h18.55.103640 +0100,
Why,18,r,17,17,0,0,17,17,17,860.0229913999792,,,,,860.0065258999821,860.0229913999792,862.004857199965,862.0103853000328,862.0213975000661,866.0016405999195,866.0016938999761,866.0205896000843,902.0052628000267,902.0053026999813,902.0238055000082,910.0181418999564,,,118346,001,2025-03-17_16h18.47.532,data_collection,2024.2.4,59.135836172544,2025-03-17 16h18.55.103640 +0100,
Get,19,s,18,18,0,0,18,18,18,910.0347881999332,,,,,910.0183210999239,910.0347881999332,912.0170708999503,912.0218758999836,912.0303170001134,916.0115189999342,916.0115741000045,916.0299150000792,952.0141493000556,952.0141879001167,952.0306001000572,960.0076963000465,,,118346,001,2025-03-17_16h18.47.532,data_collection,2024.2.4,59.135836172544,2025-03-17 16h18.55.103640 +0100,
Come,20,t,19,19,0,0,19,19,19,960.0243720998988,,,,,960.0078829999547,960.0243720998988,962.0059251999483,962.0107118000742,962.0225704999175,966.0026895001065,966.0027322000824,966.0192207000218,1002.0094165001065,1002.0094618001021,1002.0231427999679,1010.0166372999083,,,118346,001,2025-03-17_16h18.47.532,data_collection,2024.2.4,59.135836172544,2025-03-17 16h18.55.103640 +0100,
