word,marker,keybind,thisN,thisTrialN,thisRepN,wordPromptLoop.thisRepN,wordPromptLoop.thisTrialN,wordPromptLoop.thisN,wordPromptLoop.thisIndex,thisRow.t,notes,adjustment.started,text.started,adjustment.stopped,shortFixation.started,fixationCross_2.started,shortFixation.stopped,wordDisplay.started,wordDisplayText.started,wordDisplay.stopped,fixation.started,fixationCross.started,fixation.stopped,rest.started,placeholder_image.started,rest.stopped,participant,session,date,expName,psychopyVersion,frameRate,expStart,
,,,,,,,,,,,,0.0031849000370129943,0.020627300022169948,10.01112020004075,,,,,,,,,,,,,123194,001,2025-03-06_18h18.03.042,data_collection,2024.2.4,60.61638378205688,2025-03-06 18h18.11.014149 +0100,
I,1,a,0,0,0,0,0,0,0,10.03021420002915,,,,,10.023256600019522,10.03021420002915,12.008361999993213,12.014498500037007,12.027779199997894,16.00501650001388,16.00506170000881,16.019855199963786,52.00675060006324,52.00679760007188,52.04985069995746,60.01748509996105,123194,001,2025-03-06_18h18.03.042,data_collection,2024.2.4,60.61638378205688,2025-03-06 18h18.11.014149 +0100,
More,2,b,1,1,0,0,1,1,1,60.036547300056554,,,,,60.017749799997546,60.036547300056554,62.015761199989356,62.02201089996379,62.03542850003578,66.01151310000569,66.01158180006314,66.02867010002956,102.01932740001939,102.01939769997261,102.03315430006478,110.00942909996957,123194,001,2025-03-06_18h18.03.042,data_collection,2024.2.4,60.61638378205688,2025-03-06 18h18.11.014149 +0100,
What,3,c,2,2,0,0,2,2,2,110.02541790006217,,,,,110.00966480001807,110.02541790006217,112.00949780002702,112.01406479999423,112.02466810005717,116.00608770002145,116.00612400006503,116.02142480004113,152.00827470002696,152.0083278999664,152.0242639000062,160.00119630002882,123194,001,2025-03-06_18h18.03.042,data_collection,2024.2.4,60.61638378205688,2025-03-06 18h18.11.014149 +0100,
Who,4,d,3,3,0,0,3,3,3,160.01827300002333,,,,,160.001354200067,160.01827300002333,162.0013414999703,162.00711880007293,162.0167061999673,166.0156255000038,166.0156863000011,166.03021580004133,202.01713920000475,202.01718289998826,202.0365596000338,210.01294549996965,123194,001,2025-03-06_18h18.03.042,data_collection,2024.2.4,60.61638378205688,2025-03-06 18h18.11.014149 +0100,
Help,5,e,4,4,0,0,4,4,4,210.02775600005407,,,,,210.01325059996452,210.02775600005407,212.0114509999985,212.01976559998002,212.03272829996422,216.00696939998306,216.00702300004195,216.02448000002187,252.00986700004432,252.0099118000362,252.0264482999919,260.0028247999726,123194,001,2025-03-06_18h18.03.042,data_collection,2024.2.4,60.61638378205688,2025-03-06 18h18.11.014149 +0100,
You,6,f,5,5,0,0,5,5,5,260.019904899993,,,,,260.0029994000215,260.019904899993,262.0010835999856,262.00778109999374,262.018209700007,266.0148130999878,266.0148720999714,266.0318816000363,302.00308589998167,302.003130099969,302.0182782000629,310.0119478000561,123194,001,2025-03-06_18h18.03.042,data_collection,2024.2.4,60.61638378205688,2025-03-06 18h18.11.014149 +0100,
Want,7,g,6,6,0,0,6,6,6,310.0290853000479,,,,,310.0122980000451,310.0290853000479,312.01065860001836,312.0251052000094,312.0345008999575,316.0084552000044,316.00849150004797,316.0234480999643,352.0108316000551,352.01092050003354,352.02697650005575,360.0038811999839,123194,001,2025-03-06_18h18.03.042,data_collection,2024.2.4,60.61638378205688,2025-03-06 18h18.11.014149 +0100,
When,8,h,7,7,0,0,7,7,7,360.0207127999747,,,,,360.00421939999796,360.0207127999747,362.0053020999767,362.0113846999593,362.0196603999939,366.0190181999933,366.01907649997156,366.0328237999929,402.00246170000173,402.0024972000392,402.0189082999714,410.01351259998046,123194,001,2025-03-06_18h18.03.042,data_collection,2024.2.4,60.61638378205688,2025-03-06 18h18.11.014149 +0100,
On,9,i,8,8,0,0,8,8,8,410.0298230999615,,,,,410.01374179997947,410.0298230999615,412.011988400016,412.0240406000521,412.0307613000041,416.0078567999881,416.0079314999748,416.02484980004374,452.0152031000471,452.0153076000279,452.0290473999921,460.00492820004,123194,001,2025-03-06_18h18.03.042,data_collection,2024.2.4,60.61638378205688,2025-03-06 18h18.11.014149 +0100,
Stop,10,j,9,9,0,0,9,9,9,460.02310730004683,,,,,460.0050793000264,460.02310730004683,462.0032907000277,462.00814120005816,462.0200950000435,466.01683029998094,466.01687010005116,466.0365993999876,502.0035566999577,502.0035989000462,502.01975440001115,510.0142179999966,123194,001,2025-03-06_18h18.03.042,data_collection,2024.2.4,60.61638378205688,2025-03-06 18h18.11.014149 +0100,
Yes,11,k,10,10,0,0,10,10,10,510.0308384000091,,,,,510.01450020004995,510.0308384000091,512.0127328999806,512.0172696000664,512.0290486000013,516.0087548999581,516.0087931000162,516.0258154000621,552.0124304000055,552.0124853999587,552.0331284999847,560.0054104999872,123194,001,2025-03-06_18h18.03.042,data_collection,2024.2.4,60.61638378205688,2025-03-06 18h18.11.014149 +0100,
Do,12,l,11,11,0,0,11,11,11,560.0252916000318,,,,,560.0055976000149,560.0252916000318,562.0054918000242,562.0127055000048,562.0241955000674,566.0031440999592,566.0032165000448,566.0183065000456,602.0047162000556,602.00475740002,602.022009300068,610.0156234999886,123194,001,2025-03-06_18h18.03.042,data_collection,2024.2.4,60.61638378205688,2025-03-06 18h18.11.014149 +0100,
Where,13,m,12,12,0,0,12,12,12,610.0315751000308,,,,,610.0159036000259,610.0315751000308,612.0133495000191,612.0251806000015,612.0354586000321,616.010924900067,616.0109913999913,616.0303514000261,652.0142628999893,652.0143518999685,652.0304582000244,660.006635800004,123194,001,2025-03-06_18h18.03.042,data_collection,2024.2.4,60.61638378205688,2025-03-06 18h18.11.014149 +0100,
In,14,n,13,13,0,0,13,13,13,660.026799299987,,,,,660.0068445999641,660.026799299987,662.0059686000459,662.0115628000349,662.0254189000698,666.0040503999917,666.004094199976,666.0215893000131,702.0066391000291,702.0066721000476,702.0235342000378,710.0169260000112,123194,001,2025-03-06_18h18.03.042,data_collection,2024.2.4,60.61638378205688,2025-03-06 18h18.11.014149 +0100,
Give,15,o,14,14,0,0,14,14,14,710.0327464999864,,,,,710.0171476000687,710.0327464999864,712.0143210999668,712.0204581000144,712.0345288000535,716.0118312999839,716.0119481000584,716.0305013000034,752.015679800068,752.0157280999701,752.03193930001,760.0086942999624,123194,001,2025-03-06_18h18.03.042,data_collection,2024.2.4,60.61638378205688,2025-03-06 18h18.11.014149 +0100,
No,16,p,15,15,0,0,15,15,15,760.0256428000284,,,,,760.0089195000473,760.0256428000284,762.0069896000205,762.0156357999658,762.0263913000235,766.0031405000482,766.0031726000598,766.0229742999654,802.0090026999824,802.009045499959,802.0246574999765,810.0006343000568,123194,001,2025-03-06_18h18.03.042,data_collection,2024.2.4,60.61638378205688,2025-03-06 18h18.11.014149 +0100,
Put,17,q,16,16,0,0,16,16,16,810.0180883000139,,,,,810.0008092999924,810.0180883000139,812.0008884000126,812.1278955000453,812.1319200000726,816.0158488999587,816.0159176000161,816.0318431999767,852.0168918999843,852.0169528999832,852.0335074999603,860.0127016999759,123194,001,2025-03-06_18h18.03.042,data_collection,2024.2.4,60.61638378205688,2025-03-06 18h18.11.014149 +0100,
Why,18,r,17,17,0,0,17,17,17,860.0266877000686,,,,,860.0129219000228,860.0266877000686,862.0080960000632,862.0122560999589,862.0243698999984,866.0046606999822,866.0046957000159,866.0209285999881,902.0110077999998,902.0110512999818,902.0279075000435,910.0031967000104,123194,001,2025-03-06_18h18.03.042,data_collection,2024.2.4,60.61638378205688,2025-03-06 18h18.11.014149 +0100,
Get,19,s,18,18,0,0,18,18,18,910.0216303999769,,,,,910.0034118000185,910.0216303999769,912.0175865000347,912.0228802000638,912.0366056000348,916.0133960000239,916.0134669999825,916.0337242999813,952.0011906999862,952.0012288000435,952.0203291999642,960.0112810999854,123194,001,2025-03-06_18h18.03.042,data_collection,2024.2.4,60.61638378205688,2025-03-06 18h18.11.014149 +0100,
Come,20,t,19,19,0,0,19,19,19,960.0283857999602,,,,,960.0114499999909,960.0283857999602,962.0110106000211,962.0159476000117,962.0266231000423,966.0079159999732,966.0079494999954,966.0229040000122,1002.0093023000518,1002.0093460000353,1002.0289385999786,1010.0032049999572,123194,001,2025-03-06_18h18.03.042,data_collection,2024.2.4,60.61638378205688,2025-03-06 18h18.11.014149 +0100,
