word,marker,keybind,thisN,thisTrialN,thisRepN,wordPromptLoop.thisRepN,wordPromptLoop.thisTrialN,wordPromptLoop.thisN,wordPromptLoop.thisIndex,thisRow.t,notes,adjustment.started,text.started,adjustment.stopped,shortFixation.started,fixationCross_2.started,shortFixation.stopped,wordDisplay.started,wordDisplayText.started,wordDisplay.stopped,fixation.started,fixationCross.started,fixation.stopped,rest.started,placeholder_image.started,rest.stopped,participant,session,date,expName,psychopyVersion,frameRate,expStart,
,,,,,,,,,,,,0.003710000077262521,0.015268299961462617,10.004378900164738,,,,,,,,,,,,,259522,001,2025-03-13_17h54.04.999,data_collection,2024.2.4,None,2025-03-13 17h54.14.846778 +0100,
I,1,a,0,0,0,0,0,0,0,10.020751500036567,,,,,10.012781500117853,10.020751500036567,12.002698099939153,12.012052700156346,12.024152300087735,16.01849799999036,16.01853230013512,16.03269310016185,52.00346909998916,52.003503300016746,52.03814409999177,60.01546370005235,259522,001,2025-03-13_17h54.04.999,data_collection,2024.2.4,None,2025-03-13 17h54.14.846778 +0100,
More,2,b,1,1,0,0,1,1,1,60.029586400138214,,,,,60.01566920010373,60.029586400138214,62.01359610003419,62.019226500066,62.02777669997886,66.01062790001743,66.0106800000649,66.02447970001958,102.01166540011764,102.0117043000646,102.03081530006602,110.00531310006045,259522,001,2025-03-13_17h54.04.999,data_collection,2024.2.4,None,2025-03-13 17h54.14.846778 +0100,
What,3,c,2,2,0,0,2,2,2,110.02441980014555,,,,,110.00549150002189,110.02441980014555,112.0039166000206,112.01008870010264,112.02364540006965,116.00049820006825,116.00055540003814,116.0169788999483,152.0054017000366,152.00544250011444,152.02279180008918,160.01695630000904,259522,001,2025-03-13_17h54.04.999,data_collection,2024.2.4,None,2025-03-13 17h54.14.846778 +0100,
Who,4,d,3,3,0,0,3,3,3,160.03095629997551,,,,,160.01712179998867,160.03095629997551,162.0124957000371,162.0201906999573,162.0330143000465,166.0112898000516,166.01133040012792,166.02835300005972,202.01283759996295,202.01287630014122,202.029474100098,210.00896480004303,259522,001,2025-03-13_17h54.04.999,data_collection,2024.2.4,None,2025-03-13 17h54.14.846778 +0100,
Help,5,e,4,4,0,0,4,4,4,210.02288560010493,,,,,210.0091336001642,210.02288560010493,212.0047077999916,212.00920210010372,212.02133759995922,216.002183200093,216.0022319999989,216.0178207999561,252.00552490004338,252.00556139997207,252.02465360006317,260.01822850015014,259522,001,2025-03-13_17h54.04.999,data_collection,2024.2.4,None,2025-03-13 17h54.14.846778 +0100,
You,6,f,5,5,0,0,5,5,5,260.032007999951,,,,,260.01840699999593,260.032007999951,262.0138332999777,262.0202611000277,262.0340978000313,266.01413380005397,266.0142088001594,266.02684840001166,302.0139783001505,302.0140142000746,302.03047970007174,310.00751610007137,259522,001,2025-03-13_17h54.04.999,data_collection,2024.2.4,None,2025-03-13 17h54.14.846778 +0100,
Want,7,g,6,6,0,0,6,6,6,310.0239687000867,,,,,310.00770450010896,310.0239687000867,312.0082865001168,312.01814749999903,312.02350799995475,316.0051738000475,316.0052108000964,316.0193525000941,352.0062860001344,352.00634069996886,352.02547150012106,360.0193030999508,259522,001,2025-03-13_17h54.04.999,data_collection,2024.2.4,None,2025-03-13 17h54.14.846778 +0100,
When,8,h,7,7,0,0,7,7,7,360.0356163000688,,,,,360.01954380003735,360.0356163000688,362.01490700012073,362.0232388000004,362.0346460000146,366.01199030014686,366.0120576999616,366.03063470008783,402.00089220004156,402.00093029998243,402.017606300069,410.0093755000271,259522,001,2025-03-13_17h54.04.999,data_collection,2024.2.4,None,2025-03-13 17h54.14.846778 +0100,
On,9,i,8,8,0,0,8,8,8,410.0280240001157,,,,,410.0095848001074,410.0280240001157,412.00747970002703,412.0131405000575,412.0236311000772,416.00730920000933,416.00734410015866,416.0203869000543,452.0078901001252,452.0079278999474,452.02634570002556,460.00107100000605,259522,001,2025-03-13_17h54.04.999,data_collection,2024.2.4,None,2025-03-13 17h54.14.846778 +0100,
Stop,10,j,9,9,0,0,9,9,9,460.01739299995825,,,,,460.0012285001576,460.01739299995825,462.01848380011506,462.0221528999973,462.03256760002114,466.0127600999549,466.01280579995364,466.0290524000302,502.01999190007336,502.02003589994274,502.03548029996455,510.0097300000489,259522,001,2025-03-13_17h54.04.999,data_collection,2024.2.4,None,2025-03-13 17h54.14.846778 +0100,
Yes,11,k,10,10,0,0,10,10,10,510.02641239995137,,,,,510.0099281000439,510.02641239995137,512.0110208000988,512.0163114001043,512.0251643999945,516.007787300041,516.007852199953,516.02175049996,552.0085674000438,552.008602600079,552.0252008000389,560.0021323000547,259522,001,2025-03-13_17h54.04.999,data_collection,2024.2.4,None,2025-03-13 17h54.14.846778 +0100,
Do,12,l,11,11,0,0,11,11,11,560.0184285000432,,,,,560.002285100054,560.0184285000432,562.0005125999451,562.0061389999464,562.017072299961,566.0138713000342,566.0139158000238,566.0336331001017,602.0007961001247,602.0008541001007,602.0196392000653,610.0138749000616,259522,001,2025-03-13_17h54.04.999,data_collection,2024.2.4,None,2025-03-13 17h54.14.846778 +0100,
Where,13,m,12,12,0,0,12,12,12,610.027419900056,,,,,610.0140641001053,610.027419900056,612.0118554001674,612.1273930000607,612.132242300082,616.0088559000287,616.0089066999499,616.022656599991,652.0098572000861,652.0098934001289,652.0261822999455,660.0031278999522,259522,001,2025-03-13_17h54.04.999,data_collection,2024.2.4,None,2025-03-13 17h54.14.846778 +0100,
In,14,n,13,13,0,0,13,13,13,660.0196752001066,,,,,660.0032925000414,660.0196752001066,662.0015263000969,662.0056984999683,662.0181001999881,666.0007828001399,666.0008193000685,666.0148263000883,702.0018764999695,702.001914100023,702.0185019001365,710.0123259001411,259522,001,2025-03-13_17h54.04.999,data_collection,2024.2.4,None,2025-03-13 17h54.14.846778 +0100,
Give,15,o,14,14,0,0,14,14,14,710.02906420012,,,,,710.0125182999764,710.02906420012,712.0104531000834,712.0198135999963,712.0305465001147,716.0098699999508,716.0099126000423,716.0263509000652,752.0111182001419,752.0111837000586,752.027488599997,760.006963999942,259522,001,2025-03-13_17h54.04.999,data_collection,2024.2.4,None,2025-03-13 17h54.14.846778 +0100,
No,16,p,15,15,0,0,15,15,15,760.020882199984,,,,,760.0071187999565,760.020882199984,762.005328200059,762.0096269999631,762.0190920999739,766.0024749001022,766.0025288001634,766.0160233001225,802.0031508000102,802.0031957000028,802.0197068999987,810.0133088999428,259522,001,2025-03-13_17h54.04.999,data_collection,2024.2.4,None,2025-03-13 17h54.14.846778 +0100,
Put,17,q,16,16,0,0,16,16,16,810.0326235999819,,,,,810.0134803000838,810.0326235999819,812.01154029998,812.0164988001343,812.0314537000377,816.0089773000218,816.009013999952,816.027184000006,852.0144657001365,852.0145042999648,852.0285583999939,860.0086493000854,259522,001,2025-03-13_17h54.04.999,data_collection,2024.2.4,None,2025-03-13 17h54.14.846778 +0100,
Why,18,r,17,17,0,0,17,17,17,860.0221227000002,,,,,860.0088359001093,860.0221227000002,862.0041732001118,862.011130800005,862.0236349999905,866.0006812000647,866.0007190001197,866.0172103999648,902.0042481999844,902.0042850000318,902.0207436999772,910.0143282001372,259522,001,2025-03-13_17h54.04.999,data_collection,2024.2.4,None,2025-03-13 17h54.14.846778 +0100,
Get,19,s,18,18,0,0,18,18,18,910.0308125000447,,,,,910.0144839000423,910.0308125000447,912.0127151999623,912.0186038999818,912.0330421000253,916.009571300121,916.0096069001593,916.0260918999556,952.0157447999809,952.0157802000176,952.0302633000538,960.0092752000783,259522,001,2025-03-13_17h54.04.999,data_collection,2024.2.4,None,2025-03-13 17h54.14.846778 +0100,
Come,20,t,19,19,0,0,19,19,19,960.0243021000642,,,,,960.009431200102,960.0243021000642,962.0050329000223,962.0097183000762,962.0257073999383,966.0017202999443,966.0017590001225,966.02123640012,1002.0078581999987,1002.0079010000918,1002.0220447999891,1010.0186839001253,259522,001,2025-03-13_17h54.04.999,data_collection,2024.2.4,None,2025-03-13 17h54.14.846778 +0100,
