word,marker,keybind,thisN,thisTrialN,thisRepN,wordPromptLoop.thisRepN,wordPromptLoop.thisTrialN,wordPromptLoop.thisN,wordPromptLoop.thisIndex,thisRow.t,notes,adjustment.started,text.started,text.stopped,adjustment.stopped,shortFixation.started,fixationCross_2.started,shortFixation.stopped,wordDisplay.started,wordDisplayText.started,wordDisplay.stopped,fixation.started,fixationCross.started,fixation.stopped,rest.started,placeholder_image.started,rest.stopped,wordDisplayText.stopped,participant,session,date,expName,psychopyVersion,frameRate,expStart,
,,,,,,,,,,,,0.0034278000239282846,0.01244270009920001,10.016993600176647,10.000504800118506,,,,,,,,,,,,,,306651,001,2025-03-18_18h28.04.660,data_collection,2024.2.4,None,2025-03-18 18h28.12.536284 +0100,
I,1,a,0,0,0,0,0,0,0,10.016993600176647,,,,,,10.006618299987167,10.016993600176647,12.018270600121468,12.026306700194255,12.036226900061592,16.01228790008463,16.012321999995038,16.031231200089678,52.01833720016293,52.01837440021336,52.053814799990505,60.00902980007231,,306651,001,2025-03-18_18h28.04.660,data_collection,2024.2.4,None,2025-03-18 18h28.12.536284 +0100,
More,2,b,1,1,0,0,1,1,1,60.02894170000218,,,,,,60.00917520001531,60.02894170000218,62.00812530005351,62.013856400037184,62.027421600185335,66.0045968000777,66.004641600186,66.0235635000281,102.007936200127,102.00797170004807,102.02434360003099,110.0015387001913,,306651,001,2025-03-18_18h28.04.660,data_collection,2024.2.4,None,2025-03-18 18h28.12.536284 +0100,
What,3,c,2,2,0,0,2,2,2,110.01795910019428,,,,,,110.0017074001953,110.01795910019428,112.0025764000602,112.00856110011227,112.01627240004018,116.01295300014317,116.01300500007346,116.03228010004386,152.01697830017656,152.0170247000642,152.0333323001396,160.01029900019057,,306651,001,2025-03-18_18h28.04.660,data_collection,2024.2.4,None,2025-03-18 18h28.12.536284 +0100,
Who,4,d,3,3,0,0,3,3,3,160.02888210001402,,,,,,160.01048810011707,160.02888210001402,162.01134630013257,162.01921140006743,162.02863630000502,166.00536120007746,166.00539720011875,166.02435520011932,202.0094689000398,202.0095081999898,202.02581070014276,210.00595400016755,,306651,001,2025-03-18_18h28.04.660,data_collection,2024.2.4,None,2025-03-18 18h28.12.536284 +0100,
Help,5,e,4,4,0,0,4,4,4,210.01898570009507,,,,,,210.0061141999904,210.01898570009507,212.00367730017751,212.00922770006582,212.01761239999905,216.00082490011118,216.00086500006728,216.01411860017106,252.00130840018392,252.0013472000137,252.01779379998334,260.01141929998994,216.01411860017106,306651,001,2025-03-18_18h28.04.660,data_collection,2024.2.4,None,2025-03-18 18h28.12.536284 +0100,
You,6,f,5,5,0,0,5,5,5,260.03038210002705,,,,,,260.01160430000164,260.03038210002705,262.0100660000462,262.0176097000949,262.03075910010375,266.0093412999995,266.0093791000545,266.0257097000722,302.0133066000417,302.0133532001637,302.02674810006283,310.0062855000142,,306651,001,2025-03-18_18h28.04.660,data_collection,2024.2.4,None,2025-03-18 18h28.12.536284 +0100,
Want,7,g,6,6,0,0,6,6,6,310.0200414999854,,,,,,310.0064442001749,310.0200414999854,312.00190880009905,312.01004570000805,312.0186496002134,316.017901299987,316.0179419000633,316.0318360000383,352.0029151001945,352.00295990007,352.0215720999986,360.0123759000562,,306651,001,2025-03-18_18h28.04.660,data_collection,2024.2.4,None,2025-03-18 18h28.12.536284 +0100,
When,8,h,7,7,0,0,7,7,7,360.031384000089,,,,,,360.01257220003754,360.031384000089,362.01069720019586,362.01494340016507,362.0275686001405,366.0077290001791,366.0077665001154,366.02703260001726,402.0137752001174,402.01380970003083,402.02787790005095,410.00751800020225,,306651,001,2025-03-18_18h28.04.660,data_collection,2024.2.4,None,2025-03-18 18h28.12.536284 +0100,
On,9,i,8,8,0,0,8,8,8,410.02122660004534,,,,,,410.007662500022,410.02122660004534,412.00592710007913,412.0132196000777,412.01959380018525,416.01889780000784,416.0189347001724,416.03307760017924,452.00720049999654,452.00724010006525,452.02042200020514,460.0137616000138,,306651,001,2025-03-18_18h28.04.660,data_collection,2024.2.4,None,2025-03-18 18h28.12.536284 +0100,
Stop,10,j,9,9,0,0,9,9,9,460.0341116001364,,,,,,460.01394450012594,460.0341116001364,462.0120428001974,462.01770100020804,462.0283966001589,466.00859790015966,466.00864680018276,466.02504800003953,502.0153195001185,502.01535680005327,502.0291244001128,510.00698340008967,,306651,001,2025-03-18_18h28.04.660,data_collection,2024.2.4,None,2025-03-18 18h28.12.536284 +0100,
Yes,11,k,10,10,0,0,10,10,10,510.0253389000427,,,,,,510.0071227001026,510.0253389000427,512.0050978001673,512.0115569999907,512.0217170000542,516.0015487000346,516.0016489000991,516.0205675000325,552.0073212001007,552.0073596001603,552.0212972001173,560.0008171000518,,306651,001,2025-03-18_18h28.04.660,data_collection,2024.2.4,None,2025-03-18 18h28.12.536284 +0100,
Do,12,l,11,11,0,0,11,11,11,560.0146214000415,,,,,,560.0009671000298,560.0146214000415,562.013955600094,562.1447251001373,562.1492903002072,566.0125891000498,566.0126288000029,566.0262482999824,602.0134038000833,602.0134515999816,602.031730200164,610.0069510000758,,306651,001,2025-03-18_18h28.04.660,data_collection,2024.2.4,None,2025-03-18 18h28.12.536284 +0100,
Where,13,m,12,12,0,0,12,12,12,610.023586000083,,,,,,610.0071074001025,610.023586000083,612.0053068001289,612.0105660001282,612.0252378000878,616.0019769000355,616.0020131000783,616.0212136001792,652.0083173001185,652.008360600099,652.0222331001423,660.0020250000525,,306651,001,2025-03-18_18h28.04.660,data_collection,2024.2.4,None,2025-03-18 18h28.12.536284 +0100,
In,14,n,13,13,0,0,13,13,13,660.015671600122,,,,,,660.0021815001965,660.015671600122,662.0142194000073,662.021382200066,662.0338169001043,666.0132757001556,666.0133201000281,666.0272812000476,702.0153948999941,702.015438800212,702.0338353000116,710.0081605000887,,306651,001,2025-03-18_18h28.04.660,data_collection,2024.2.4,None,2025-03-18 18h28.12.536284 +0100,
Give,15,o,14,14,0,0,14,14,14,710.0281706000678,,,,,,710.0083834000397,710.0281706000678,712.0068250000477,712.0116431000642,712.0236391001381,716.0033513000235,716.0033986000344,716.0203923000954,752.0094203001354,752.009459100198,752.0232738000341,760.0169331000652,,306651,001,2025-03-18_18h28.04.660,data_collection,2024.2.4,None,2025-03-18 18h28.12.536284 +0100,
No,16,p,15,15,0,0,15,15,15,760.0341472001746,,,,,,760.0171244000085,760.0341472001746,762.0184854001272,762.0231463999953,762.0319271001499,766.0145901001524,766.0146290999837,766.0285509000532,802.0158856001217,802.0159241000656,802.0325953001156,810.0091862000991,,306651,001,2025-03-18_18h28.04.660,data_collection,2024.2.4,None,2025-03-18 18h28.12.536284 +0100,
Put,17,q,16,16,0,0,16,16,16,810.025691700168,,,,,,810.0093830002006,810.025691700168,812.0074028000236,812.0115612000227,812.023998600198,816.0040938002057,816.0041444001254,816.0208801000845,852.0080913000274,852.008135000011,852.0271594000515,860.001800400205,,306651,001,2025-03-18_18h28.04.660,data_collection,2024.2.4,None,2025-03-18 18h28.12.536284 +0100,
Why,18,r,17,17,0,0,17,17,17,860.0206714000087,,,,,,860.0021522000898,860.0206714000087,862.0187642001547,862.025086699985,862.0355770001188,866.0157535001636,866.0158034001943,866.0297746001743,902.0006781001575,902.0007317001,902.0167356000748,910.010294200154,,306651,001,2025-03-18_18h28.04.660,data_collection,2024.2.4,None,2025-03-18 18h28.12.536284 +0100,
Get,19,s,18,18,0,0,18,18,18,910.0269003000576,,,,,,910.0104757000227,910.0269003000576,912.0087573002093,912.0132575000171,912.028963000048,916.008428200148,916.0084672002122,916.0245779000688,952.0091758000199,952.00924270018,952.0259672000539,960.0025891000405,,306651,001,2025-03-18_18h28.04.660,data_collection,2024.2.4,None,2025-03-18 18h28.12.536284 +0100,
Come,20,t,19,19,0,0,19,19,19,960.0190753000788,,,,,,960.0027434001677,960.0190753000788,962.0036677999888,962.0092720000539,962.0178753000218,966.0168229001574,966.0168563001789,966.0317534001078,1002.005342700053,1002.0053901001811,1002.0181292002089,1010.0117841002066,,306651,001,2025-03-18_18h28.04.660,data_collection,2024.2.4,None,2025-03-18 18h28.12.536284 +0100,
