word,marker,keybind,thisN,thisTrialN,thisRepN,wordPromptLoop.thisRepN,wordPromptLoop.thisTrialN,wordPromptLoop.thisN,wordPromptLoop.thisIndex,thisRow.t,notes,adjustment.started,text.started,adjustment.stopped,shortFixation.started,fixationCross_2.started,shortFixation.stopped,wordDisplay.started,wordDisplayText.started,wordDisplay.stopped,fixation.started,fixationCross.started,fixation.stopped,rest.started,placeholder_image.started,rest.stopped,wordDisplayText.stopped,fixationCross.stopped,fixationCross_2.stopped,participant,session,date,expName,psychopyVersion,frameRate,expStart,
,,,,,,,,,,,,0.004235800122842193,0.01602789992466569,10.007461900124326,,,,,,,,,,,,,,,,602464,001,2025-03-11_15h26.58.824,data_collection,2024.2.4,None,2025-03-11 15h27.06.826016 +0100,
I,1,a,0,0,0,0,0,0,0,10.020455500110984,,,,,10.014554199995473,10.020455500110984,12.002167199971154,12.008859599940479,12.019268400035799,16.002202700125054,16.00223969994113,16.01555799995549,52.00305530009791,52.00310089997947,52.05233599990606,60.015010399976745,,,,602464,001,2025-03-11_15h26.58.824,data_collection,2024.2.4,None,2025-03-11 15h27.06.826016 +0100,
More,2,b,1,1,0,0,1,1,1,60.03253500000574,,,,,60.01516630011611,60.03253500000574,62.011145800119266,62.01712010009214,62.029839100083336,66.00785450008698,66.00791050004773,66.02418439998291,102.01557469996624,102.01561599993147,102.02814200008288,110.00491310004145,,,,602464,001,2025-03-11_15h26.58.824,data_collection,2024.2.4,None,2025-03-11 15h27.06.826016 +0100,
What,3,c,2,2,0,0,2,2,2,110.02382329991087,,,,,110.00510740000755,110.02382329991087,112.00531250005588,112.01285940012895,112.0233470001258,116.00366339995526,116.0037016000133,116.01682929997332,152.0044460000936,152.00450709997676,152.02040229993872,160.01453600008972,,,,602464,001,2025-03-11_15h26.58.824,data_collection,2024.2.4,None,2025-03-11 15h27.06.826016 +0100,
Who,4,d,3,3,0,0,3,3,3,160.03519450011663,,,,,160.0147259000223,160.03519450011663,162.01278280001134,162.01793679990806,162.02940210001543,166.00905989995226,166.00909880013205,166.0297171000857,202.01300520007499,202.01304590003565,202.03290949994698,210.00649320008233,,,,602464,001,2025-03-11_15h26.58.824,data_collection,2024.2.4,None,2025-03-11 15h27.06.826016 +0100,
Help,5,e,4,4,0,0,4,4,4,210.02578209992498,,,,,210.0067054000683,210.02578209992498,212.008320099907,212.0130855999887,212.02108599990606,216.00245309993625,216.00249519990757,216.02117220009677,252.0048303999938,252.00486649991944,252.0216262000613,260.01525850011967,,,,602464,001,2025-03-11_15h26.58.824,data_collection,2024.2.4,None,2025-03-11 15h27.06.826016 +0100,
You,6,f,5,5,0,0,5,5,5,260.0348920999095,,,,,260.01542360009626,260.0348920999095,262.0166422999464,262.0233209000435,262.0300412001088,266.01054499996826,266.0105956001207,266.0300344999414,302.0173740000464,302.0174291001167,302.0303364000283,310.00750480010174,,,,602464,001,2025-03-11_15h26.58.824,data_collection,2024.2.4,None,2025-03-11 15h27.06.826016 +0100,
Want,7,g,6,6,0,0,6,6,6,310.0237644999288,,,,,310.00781049998477,310.0237644999288,312.00897850003093,312.0163503999356,312.0224882001057,316.0057993000373,316.0058504000772,316.01972179999575,352.0062178999651,352.00627760007046,352.02285740012303,360.0028327999171,,,,602464,001,2025-03-11_15h26.58.824,data_collection,2024.2.4,None,2025-03-11 15h27.06.826016 +0100,
When,8,h,7,7,0,0,7,7,7,360.0162587999366,,,,,360.00299949990585,360.0162587999366,362.00139699992724,362.0071284000296,362.0143929000478,366.0144088999368,366.0144481000025,366.02788619999774,402.00144960009493,402.0014937000815,402.01480489992537,410.00849379994906,,,,602464,001,2025-03-11_15h26.58.824,data_collection,2024.2.4,None,2025-03-11 15h27.06.826016 +0100,
On,9,i,8,8,0,0,8,8,8,410.0248994000722,,,,,410.0086964000948,410.0248994000722,412.00866489997134,412.01619180012494,412.0285581999924,416.0038769999519,416.003914100118,416.0235764000099,452.00802200008184,452.0080673999619,452.02841220004484,460.00692129996605,,,,602464,001,2025-03-11_15h26.58.824,data_collection,2024.2.4,None,2025-03-11 15h27.06.826016 +0100,
Stop,10,j,9,9,0,0,9,9,9,460.0180013999343,,,,,460.00727399997413,460.0180013999343,462.0035137999803,462.00807430013083,462.0158452000469,465.99986510002054,465.99991140002385,466.0123918999452,501.9998155001085,501.99987470009364,502.016286799917,510.0095572001301,466.0123918999452,502.016286799917,,602464,001,2025-03-11_15h26.58.824,data_collection,2024.2.4,None,2025-03-11 15h27.06.826016 +0100,
Yes,11,k,10,10,0,0,10,10,10,510.02915810002014,,,,,510.0097475000657,510.02915810002014,512.007972399937,512.0136663999874,512.0288867999334,516.0049612000585,516.0050033999141,516.0215684999712,552.0084337999579,552.0084736999124,552.0249560000375,560.0018529000226,,,,602464,001,2025-03-11_15h26.58.824,data_collection,2024.2.4,None,2025-03-11 15h27.06.826016 +0100,
Do,12,l,11,11,0,0,11,11,11,560.0183123999741,,,,,560.0020779999904,560.0183123999741,562.0034020000603,562.0077929000836,562.0166954000015,566.0137477000244,566.0137883001007,566.0305443999823,602.0023908000439,602.0024315000046,602.0202365000732,610.0107811999042,,,,602464,001,2025-03-11_15h26.58.824,data_collection,2024.2.4,None,2025-03-11 15h27.06.826016 +0100,
Where,13,m,12,12,0,0,12,12,12,610.0271856999025,,,,,610.0109564999584,610.0271856999025,612.009296500124,612.1437639999203,612.1477707000449,616.0057510000188,616.0057876000647,616.0250472999178,652.0098087000661,652.0098651999142,652.0260431999341,660.0032152000349,,,,602464,001,2025-03-11_15h26.58.824,data_collection,2024.2.4,None,2025-03-11 15h27.06.826016 +0100,
In,14,n,13,13,0,0,13,13,13,660.019358499907,,,,,660.0033901000861,660.019358499907,662.0015346000437,662.0075368001126,662.0190421999432,666.0187284001149,666.018764999928,666.0313059999608,702.0050623000134,702.0050985000562,702.0187576999888,710.0120590000879,,,,602464,001,2025-03-11_15h26.58.824,data_collection,2024.2.4,None,2025-03-11 15h27.06.826016 +0100,
Give,15,o,14,14,0,0,14,14,14,710.0291371000931,,,,,710.0122754999902,710.0291371000931,712.0106236001011,712.014583399985,712.0269528001081,716.0069093999919,716.0069818999618,716.0238053000066,752.0141096999869,752.0141519999597,752.0275471000932,760.0042429000605,,,,602464,001,2025-03-11_15h26.58.824,data_collection,2024.2.4,None,2025-03-11 15h27.06.826016 +0100,
No,16,p,15,15,0,0,15,15,15,760.0247982000001,,,,,760.0044503000099,760.0247982000001,762.0033881000709,762.0076025000308,762.0260191000998,766.0021703999955,766.0022144999821,766.0184041999746,802.0031409999356,802.0032089001033,802.0232710000128,810.0015139000025,,,,602464,001,2025-03-11_15h26.58.824,data_collection,2024.2.4,None,2025-03-11 15h27.06.826016 +0100,
Put,17,q,16,16,0,0,16,16,16,810.0129348000046,,,,,810.0019215999637,810.0129348000046,812.0002182000317,812.0068270999473,812.012446400011,815.9993372000754,815.9993883999996,816.0112230000086,851.9987302999943,851.998769900063,852.0122321001254,860.0052930000238,816.0112230000086,852.0122321001254,812.012446400011,602464,001,2025-03-11_15h26.58.824,data_collection,2024.2.4,None,2025-03-11 15h27.06.826016 +0100,
Why,18,r,17,17,0,0,17,17,17,860.0217828000896,,,,,860.0054764000233,860.0217828000896,862.0039359999355,862.0097964999732,862.02408750006,866.0187729999889,866.0188122000545,866.0368518999312,902.0060682001058,902.0061123000924,902.0238322999794,910.0150917000137,,,,602464,001,2025-03-11_15h26.58.824,data_collection,2024.2.4,None,2025-03-11 15h27.06.826016 +0100,
Get,19,s,18,18,0,0,18,18,18,910.0339869000018,,,,,910.0153465999756,910.0339869000018,912.0124522999395,912.0184156000614,912.0290016999934,916.0093543000985,916.009404100012,916.0292046999093,952.0164252000395,952.0164679998998,952.0298528000712,960.0063883999828,,,,602464,001,2025-03-11_15h26.58.824,data_collection,2024.2.4,None,2025-03-11 15h27.06.826016 +0100,
Come,20,t,19,19,0,0,19,19,19,960.0229879999533,,,,,960.0065900001209,960.0229879999533,962.0049793999642,962.0114605999552,962.0213119001128,966.0015762001276,966.0016181000974,966.018132199999,1002.0058470000513,1002.0058971000835,1002.0254576001316,1010.0193173000589,,,,602464,001,2025-03-11_15h26.58.824,data_collection,2024.2.4,None,2025-03-11 15h27.06.826016 +0100,
