word,marker,keybind,thisN,thisTrialN,thisRepN,wordPromptLoop.thisRepN,wordPromptLoop.thisTrialN,wordPromptLoop.thisN,wordPromptLoop.thisIndex,thisRow.t,notes,adjustment.started,text.started,adjustment.stopped,shortFixation.started,fixationCross_2.started,shortFixation.stopped,wordDisplay.started,wordDisplayText.started,wordDisplay.stopped,fixation.started,fixationCross.started,fixation.stopped,rest.started,placeholder_image.started,rest.stopped,fixationCross_2.stopped,wordDisplayText.stopped,fixationCross.stopped,participant,session,date,expName,psychopyVersion,frameRate,expStart,
,,,,,,,,,,,,0.0033441002015024424,0.013412100030109286,10.001640000147745,,,,,,,,,,,,,,,,634916,001,2025-03-17_15h49.00.849,data_collection,2024.2.4,None,2025-03-17 15h49.13.120981 +0100,
I,1,a,0,0,0,0,0,0,0,10.021201700204983,,,,,10.007964600110427,10.021201700204983,12.017363500082865,12.02582440013066,12.03759240009822,16.016197400167584,16.016243800055236,16.032247600145638,52.00290780002251,52.00295510003343,52.04626510012895,60.012702899985015,,,,634916,001,2025-03-17_15h49.00.849,data_collection,2024.2.4,None,2025-03-17 15h49.13.120981 +0100,
More,2,b,1,1,0,0,1,1,1,60.02965050004423,,,,,60.012873200001195,60.02965050004423,62.009057900169864,62.01896540005691,62.029470700072125,66.00567440013401,66.00571520021185,66.02489670016803,102.00922840018757,102.00926470011473,102.02617399999872,110.0053575001657,,,,634916,001,2025-03-17_15h49.00.849,data_collection,2024.2.4,None,2025-03-17 15h49.13.120981 +0100,
What,3,c,2,2,0,0,2,2,2,110.01920720003545,,,,,110.0055117001757,110.01920720003545,112.00164990010671,112.00796540011652,112.01794430008158,116.00157760013826,116.00161760021001,116.0146496000234,152.00149930012412,152.0015402000863,152.01812680019066,160.01157740014605,,,,634916,001,2025-03-17_15h49.00.849,data_collection,2024.2.4,None,2025-03-17 15h49.13.120981 +0100,
Who,4,d,3,3,0,0,3,3,3,160.02820160007104,,,,,160.01179350004531,160.02820160007104,162.0100738001056,162.01892539998516,162.0297875001561,166.00659070000984,166.00663240021095,166.02555620018393,202.01361430017278,202.01365310000256,202.02723120013252,210.00415400019847,,,,634916,001,2025-03-17_15h49.00.849,data_collection,2024.2.4,None,2025-03-17 15h49.13.120981 +0100,
Help,5,e,4,4,0,0,4,4,4,210.02306500007398,,,,,210.00442670006305,210.02306500007398,212.00622310000472,212.01552640018053,212.02069860021584,216.00171740003861,216.0017574999947,216.01559330010787,252.00298190000467,252.00303450017236,252.0196671001613,260.01276030018926,,,,634916,001,2025-03-17_15h49.00.849,data_collection,2024.2.4,None,2025-03-17 15h49.13.120981 +0100,
You,6,f,5,5,0,0,5,5,5,260.0293748001568,,,,,260.01294690021314,260.0293748001568,262.01116910018027,262.0212567001581,262.03169750003144,266.01114380010404,266.0112256000284,266.02438800013624,302.0115586000029,302.01160610001534,302.0305786000099,310.0049844000023,,,,634916,001,2025-03-17_15h49.00.849,data_collection,2024.2.4,None,2025-03-17 15h49.13.120981 +0100,
Want,7,g,6,6,0,0,6,6,6,310.0252771000378,,,,,310.0051399001386,310.0252771000378,312.00370100000873,312.0109199001454,312.0245160001796,316.0200386000797,316.0201072001364,316.033299600007,352.00373130012304,352.0037789000198,352.02030700002797,360.00093830004334,,,,634916,001,2025-03-17_15h49.00.849,data_collection,2024.2.4,None,2025-03-17 15h49.13.120981 +0100,
When,8,h,7,7,0,0,7,7,7,360.0138178002089,,,,,360.0010826000944,360.0138178002089,361.9994555001613,362.0036436000373,362.01229199999943,365.9958503001835,365.9958899000194,366.0090053000022,401.99659530003555,401.99664320005104,402.0126236001961,410.00614960002713,362.01229199999943,366.0090053000022,402.0126236001961,634916,001,2025-03-17_15h49.00.849,data_collection,2024.2.4,None,2025-03-17 15h49.13.120981 +0100,
On,9,i,8,8,0,0,8,8,8,410.0226821000688,,,,,410.006320200162,410.0226821000688,412.0046560000628,412.01194920018315,412.02536000008695,416.0014856001362,416.00151910004206,416.02044500014745,452.0078811000567,452.0079275001772,452.02164140017703,460.0175146001857,,,,634916,001,2025-03-17_15h49.00.849,data_collection,2024.2.4,None,2025-03-17 15h49.13.120981 +0100,
Stop,10,j,9,9,0,0,9,9,9,460.03148170001805,,,,,460.0176956001669,460.03148170001805,462.01325670001097,462.01799220009707,462.0300899001304,466.0103012002073,466.0103664000053,466.02662880020216,502.0137490001507,502.0137909001205,502.0335739001166,510.00792780006304,,,,634916,001,2025-03-17_15h49.00.849,data_collection,2024.2.4,None,2025-03-17 15h49.13.120981 +0100,
Yes,11,k,10,10,0,0,10,10,10,510.02417220012285,,,,,510.008091900032,510.02417220012285,512.0056954000611,512.0126477000304,512.0267109000124,516.0023227999918,516.002361100167,516.0190829001367,552.0065535001922,552.0066039001103,552.023030700162,560.0037403001916,,,,634916,001,2025-03-17_15h49.00.849,data_collection,2024.2.4,None,2025-03-17 15h49.13.120981 +0100,
Do,12,l,11,11,0,0,11,11,11,560.0161393000744,,,,,560.0040223000105,560.0161393000744,562.002056500176,562.1248789001256,562.1298972000368,566.0142464002129,566.0142853001598,566.0279751000926,602.017958200071,602.0179921002127,602.0317311000545,610.0110675999895,,,,634916,001,2025-03-17_15h49.00.849,data_collection,2024.2.4,None,2025-03-17 15h49.13.120981 +0100,
Where,13,m,12,12,0,0,12,12,12,610.0250789001584,,,,,610.0112145000603,610.0250789001584,612.0070952000096,612.0156737000216,612.0237411002163,616.0035761001054,616.0036476000678,616.0219398001209,652.0101491000969,652.0101899001747,652.0240213000216,660.0012661002111,,,,634916,001,2025-03-17_15h49.00.849,data_collection,2024.2.4,None,2025-03-17 15h49.13.120981 +0100,
In,14,n,13,13,0,0,13,13,13,660.020185300149,,,,,660.0014718000311,660.020185300149,662.0033875000663,662.0086245001294,662.0200136001222,666.0125913000666,666.012623900082,666.0324999000877,702.0161646001507,702.0162028002087,702.0351602002047,710.0095795001835,,,,634916,001,2025-03-17_15h49.00.849,data_collection,2024.2.4,None,2025-03-17 15h49.13.120981 +0100,
Give,15,o,14,14,0,0,14,14,14,710.0265820000786,,,,,710.009731200058,710.0265820000786,712.0108567001298,712.0170345001388,712.0245616000611,716.0074569000863,716.0074935001321,716.0212222000118,752.0083699000534,752.0084119001403,752.0283343000337,760.002047700109,,,,634916,001,2025-03-17_15h49.00.849,data_collection,2024.2.4,None,2025-03-17 15h49.13.120981 +0100,
No,16,p,15,15,0,0,15,15,15,760.018513899995,,,,,760.0022003001068,760.018513899995,762.002772100037,762.0087795001455,762.0168798000086,766.0137467000168,766.0137857000809,766.032607300207,802.0005367000122,802.0005721000489,802.0198953000363,810.0134210002143,,,,634916,001,2025-03-17_15h49.00.849,data_collection,2024.2.4,None,2025-03-17 15h49.13.120981 +0100,
Put,17,q,16,16,0,0,16,16,16,810.0273669001181,,,,,810.0136001000647,810.0273669001181,812.0090773000848,812.0142233001534,812.0258194000926,816.0086153000593,816.0086511000991,816.0224256000947,852.0097890000325,852.0098275002092,852.0289049001876,860.0029767001979,,,,634916,001,2025-03-17_15h49.00.849,data_collection,2024.2.4,None,2025-03-17 15h49.13.120981 +0100,
Why,18,r,17,17,0,0,17,17,17,860.019558200147,,,,,860.0031303002033,860.019558200147,862.0022936000023,862.0065132000018,862.0205986001529,866.0152013001498,866.0152503000572,866.0340128000826,902.0023976000957,902.0024394001812,902.0208014000673,910.0119037001859,,,,634916,001,2025-03-17_15h49.00.849,data_collection,2024.2.4,None,2025-03-17 15h49.13.120981 +0100,
Get,19,s,18,18,0,0,18,18,18,910.0283995000646,,,,,910.0120843001641,910.0283995000646,912.0103767002001,912.0146906999871,912.0303204001393,916.010012099985,916.0100506001618,916.0235309000127,952.0109491001349,952.0109868000727,952.027139000129,960.0042871001642,,,,634916,001,2025-03-17_15h49.00.849,data_collection,2024.2.4,None,2025-03-17 15h49.13.120981 +0100,
Come,20,t,19,19,0,0,19,19,19,960.0208095000125,,,,,960.0044551000465,960.0208095000125,962.0025520999916,962.0061794000212,962.0192034000065,966.0158497001976,966.0158886001445,966.0355829000473,1002.0029994000215,1002.0030402000993,1002.0229957001284,1010.0164408001583,,,,634916,001,2025-03-17_15h49.00.849,data_collection,2024.2.4,None,2025-03-17 15h49.13.120981 +0100,
