word,marker,keybind,thisN,thisTrialN,thisRepN,wordPromptLoop.thisRepN,wordPromptLoop.thisTrialN,wordPromptLoop.thisN,wordPromptLoop.thisIndex,thisRow.t,notes,adjustment.started,text.started,adjustment.stopped,shortFixation.started,fixationCross_2.started,shortFixation.stopped,wordDisplay.started,wordDisplayText.started,wordDisplay.stopped,fixation.started,fixationCross.started,fixation.stopped,rest.started,placeholder_image.started,rest.stopped,participant,session,date,expName,psychopyVersion,frameRate,expStart,
,,,,,,,,,,,,0.0034263000125065446,0.012995400000363588,10.006842100061476,,,,,,,,,,,,,657453,001,2025-03-10_18h14.24.037,data_collection,2024.2.4,59.94050309205126,2025-03-10 18h14.30.006147 +0100,
I,1,a,0,0,0,0,0,0,0,10.0226995999692,,,,,10.01395669998601,10.0226995999692,12.004314100020565,12.011322700069286,12.022089799982496,16.001276800059713,16.001309699960984,16.015993000008166,52.004930500057526,52.00496369996108,52.04584849998355,60.01332819997333,657453,001,2025-03-10_18h14.24.037,data_collection,2024.2.4,59.94050309205126,2025-03-10 18h14.30.006147 +0100,
More,2,b,1,1,0,0,1,1,1,60.03063729999121,,,,,60.013493000064045,60.03063729999121,62.011663699988276,62.01753239997197,62.02826240006834,66.00822339998558,66.00826040003449,66.02471220004372,102.01209360000212,102.01213230006397,102.03070490004029,110.00555520004127,657453,001,2025-03-10_18h14.24.037,data_collection,2024.2.4,59.94050309205126,2025-03-10 18h14.30.006147 +0100,
What,3,c,2,2,0,0,2,2,2,110.02215269999579,,,,,110.00573970004916,110.02215269999579,112.00408770004287,112.01354089996312,112.02326200006064,116.00112240004819,116.00117519998457,116.01718219998293,152.00407430005725,152.00411830004305,152.02074369997717,160.01751739997417,657453,001,2025-03-10_18h14.24.037,data_collection,2024.2.4,59.94050309205126,2025-03-10 18h14.30.006147 +0100,
Who,4,d,3,3,0,0,3,3,3,160.03097570000682,,,,,160.01772130001336,160.03097570000682,162.01296940003522,162.01837219996378,162.03276840003673,166.00967940001283,166.00971120002214,166.02663790003862,202.015069300076,202.01510219997726,202.030123500037,210.00691410002764,657453,001,2025-03-10_18h14.24.037,data_collection,2024.2.4,59.94050309205126,2025-03-10 18h14.30.006147 +0100,
Help,5,e,4,4,0,0,4,4,4,210.02577000006568,,,,,210.0070679000346,210.02577000006568,212.00556349998806,212.01520240004174,212.02555740007665,216.00175990001298,216.00180089997593,216.02017999999225,252.0056233999785,252.00567820004653,252.02214140002616,260.01582490000874,657453,001,2025-03-10_18h14.24.037,data_collection,2024.2.4,59.94050309205126,2025-03-10 18h14.30.006147 +0100,
You,6,f,5,5,0,0,5,5,5,260.0322001000168,,,,,260.0160811999813,260.0322001000168,262.0141469000373,262.01969930005725,262.0307688000612,266.0107917999849,266.01082970004063,266.0276742000133,302.0145101000089,302.01454570004717,302.0329428999685,310.00793059996795,657453,001,2025-03-10_18h14.24.037,data_collection,2024.2.4,59.94050309205126,2025-03-10 18h14.30.006147 +0100,
Want,7,g,6,6,0,0,6,6,6,310.02461770002265,,,,,310.00808870000765,310.02461770002265,312.0101945999777,312.0174762000097,312.02353100001346,316.00293049996253,316.00297260005027,316.0194627000019,352.00666730001103,352.00671640003566,352.02314990002196,360.01932960003614,657453,001,2025-03-10_18h14.24.037,data_collection,2024.2.4,59.94050309205126,2025-03-10 18h14.30.006147 +0100,
When,8,h,7,7,0,0,7,7,7,360.033443500055,,,,,360.0196055000415,360.033443500055,362.0154279000126,362.02420940005686,362.031666600029,366.0136843000073,366.0137205000501,366.0283281999873,402.00089969998226,402.000939700054,402.01584999996703,410.00935900001787,657453,001,2025-03-10_18h14.24.037,data_collection,2024.2.4,59.94050309205126,2025-03-10 18h14.30.006147 +0100,
On,9,i,8,8,0,0,8,8,8,410.0261711999774,,,,,410.0095005000476,410.0261711999774,412.0075458000647,412.0123156000627,412.02467050007544,416.00426189997233,416.0042972000083,416.0207188000204,452.00809100002516,452.008142100065,452.02460220002104,460.0034995999886,657453,001,2025-03-10_18h14.24.037,data_collection,2024.2.4,59.94050309205126,2025-03-10 18h14.30.006147 +0100,
Stop,10,j,9,9,0,0,9,9,9,460.01779379998334,,,,,460.0038327999646,460.01779379998334,462.0186871000333,462.0253439999651,462.03301180002745,466.0152206000639,466.01525589998346,466.0298294000095,502.0025125000393,502.0025534000015,502.01697590004187,510.01085760002024,657453,001,2025-03-10_18h14.24.037,data_collection,2024.2.4,59.94050309205126,2025-03-10 18h14.30.006147 +0100,
Yes,11,k,10,10,0,0,10,10,10,510.0273806999903,,,,,510.0111103999661,510.0273806999903,512.0088638999732,512.0152881999966,512.0255623999983,516.0058247999987,516.0058575000148,516.0223009000765,552.0092909999657,552.0093246999895,552.0275790999876,560.0031963000074,657453,001,2025-03-10_18h14.24.037,data_collection,2024.2.4,59.94050309205126,2025-03-10 18h14.30.006147 +0100,
Do,12,l,11,11,0,0,11,11,11,560.0213466000278,,,,,560.003387200064,560.0213466000278,562.0028404999757,562.0094732000725,562.0175469999667,566.0171024000738,566.0171507999767,566.0328061999753,602.0034361999715,602.0034919000464,602.0182480000658,610.0118451999733,657453,001,2025-03-10_18h14.24.037,data_collection,2024.2.4,59.94050309205126,2025-03-10 18h14.30.006147 +0100,
Where,13,m,12,12,0,0,12,12,12,610.0285383000737,,,,,610.0121251000091,610.0285383000737,612.0097711000126,612.0133537000511,612.0270125999814,616.0067349000601,616.0067703999812,616.0235774000175,652.0111050000414,652.0111795000266,652.028813800076,660.0040304000722,657453,001,2025-03-10_18h14.24.037,data_collection,2024.2.4,59.94050309205126,2025-03-10 18h14.30.006147 +0100,
In,14,n,13,13,0,0,13,13,13,660.0204750000266,,,,,660.004234299995,660.0204750000266,662.0026734999847,662.0079643999925,662.0193073999835,666.017653799965,666.0176841999637,666.0325474999845,702.0041945000412,702.0042314999737,702.0222092999611,710.0161386000691,657453,001,2025-03-10_18h14.24.037,data_collection,2024.2.4,59.94050309205126,2025-03-10 18h14.30.006147 +0100,
Give,15,o,14,14,0,0,14,14,14,710.0316680000396,,,,,710.0162905000616,710.0316680000396,712.0111501000356,712.0179195000092,712.0276373999659,716.0077879000455,716.0078302000184,716.0243450000416,752.0120060000336,752.0120685000438,752.0300594000146,760.0050855000736,657453,001,2025-03-10_18h14.24.037,data_collection,2024.2.4,59.94050309205126,2025-03-10 18h14.30.006147 +0100,
No,16,p,15,15,0,0,15,15,15,760.0214103000471,,,,,760.005311600049,760.0214103000471,762.0037881999742,762.0088088000193,762.0204089999897,766.0168587999651,766.0168912999798,766.0355012000073,802.0041093999753,802.0041544999694,802.0227378000272,810.0170236000558,657453,001,2025-03-10_18h14.24.037,data_collection,2024.2.4,59.94050309205126,2025-03-10 18h14.30.006147 +0100,
Put,17,q,16,16,0,0,16,16,16,810.0306360999821,,,,,810.0171814999776,810.0306360999821,812.0122829000466,812.0173599000555,812.0289268000051,816.0090568000451,816.0090954999905,816.025381000014,852.0128439000109,852.0128796000499,852.0295240000123,860.008131199982,657453,001,2025-03-10_18h14.24.037,data_collection,2024.2.4,59.94050309205126,2025-03-10 18h14.30.006147 +0100,
Why,18,r,17,17,0,0,17,17,17,860.0233358000405,,,,,860.0082949000644,860.0233358000405,862.0064229000127,862.0130369999679,862.0212043999927,866.0016685000155,866.0017092999769,866.0181481000036,902.0055292000761,902.0055756999645,902.0234329999657,910.0163630000316,657453,001,2025-03-10_18h14.24.037,data_collection,2024.2.4,59.94050309205126,2025-03-10 18h14.30.006147 +0100,
Get,19,s,18,18,0,0,18,18,18,910.0334380000131,,,,,910.0165215000743,910.0334380000131,912.0135815000394,912.0177132000681,912.0301974000176,916.0103640999878,916.0104050000664,916.0275037999963,952.0140632999828,952.0141029000515,952.0307469000109,960.0077689000173,657453,001,2025-03-10_18h14.24.037,data_collection,2024.2.4,59.94050309205126,2025-03-10 18h14.30.006147 +0100,
Come,20,t,19,19,0,0,19,19,19,960.0239547999809,,,,,960.0079793999903,960.0239547999809,962.0059993000468,962.1293144000228,962.1331211000215,966.0028260999825,966.0028581999941,966.0191782000475,1002.0067423,1002.00677550002,1002.0235770000145,1010.0018082000315,657453,001,2025-03-10_18h14.24.037,data_collection,2024.2.4,59.94050309205126,2025-03-10 18h14.30.006147 +0100,
